File: examples/usgs_splib07/ASCIIdata/ASCIIdata_splib07a/ChapterM_Minerals/splib07a_Chalcedony_CU91-6A_XRD_NIC4aa_RREF.txt
 splib07a Record=2504: Chalcedony CU91-6A XRD       NIC4aa RREF
-1.23e+34
-1.23e+34
-1.23e+34
-1.23e+34
-1.23e+34
-1.23e+34
-1.23e+34
-1.23e+34
-1.23e+34
-1.23e+34
-1.23e+34
-1.23e+34
-1.23e+34
-1.23e+34
-1.23e+34
-1.23e+34
-1.23e+34
-1.23e+34
-1.23e+34
-1.23e+34
-1.23e+34
-1.23e+34
-1.23e+34
-1.23e+34
-1.23e+34
-1.23e+34
-1.23e+34
-1.23e+34
-1.23e+34
-1.23e+34
-1.23e+34
-1.23e+34
-1.23e+34
-1.23e+34
-1.23e+34
-1.23e+34
-1.23e+34
-1.23e+34
-1.23e+34
-1.23e+34
-1.23e+34
-1.23e+34
-1.23e+34
-1.23e+34
-1.23e+34
-1.23e+34
-1.23e+34
-1.23e+34
-1.23e+34
-1.23e+34
-1.23e+34
-1.23e+34
-1.23e+34
-1.23e+34
-1.23e+34
-1.23e+34
-1.23e+34
-1.23e+34
-1.23e+34
-1.23e+34
-1.23e+34
-1.23e+34
-1.23e+34
-1.23e+34
-1.23e+34
-1.23e+34
-1.23e+34
-1.23e+34
-1.23e+34
-1.23e+34
-1.23e+34
-1.23e+34
-1.23e+34
-1.23e+34
-1.23e+34
-1.23e+34
-1.23e+34
-1.23e+34
-1.23e+34
-1.23e+34
-1.23e+34
-1.23e+34
-1.23e+34
-1.23e+34
-1.23e+34
-1.23e+34
-1.23e+34
-1.23e+34
-1.23e+34
-1.23e+34
-1.23e+34
-1.23e+34
-1.23e+34
-1.23e+34
-1.23e+34
-1.23e+34
-1.23e+34
-1.23e+34
-1.23e+34
-1.23e+34
-1.23e+34
-1.23e+34
-1.23e+34
-1.23e+34
-1.23e+34
-1.23e+34
-1.23e+34
-1.23e+34
-1.23e+34
-1.23e+34
-1.23e+34
-1.23e+34
-1.23e+34
-1.23e+34
-1.23e+34
-1.23e+34
-1.23e+34
-1.23e+34
-1.23e+34
-1.23e+34
-1.23e+34
-1.23e+34
-1.23e+34
-1.23e+34
-1.23e+34
-1.23e+34
-1.23e+34
-1.23e+34
-1.23e+34
-1.23e+34
-1.23e+34
-1.23e+34
-1.23e+34
-1.23e+34
-1.23e+34
-1.23e+34
-1.23e+34
-1.23e+34
-1.23e+34
-1.23e+34
-1.23e+34
-1.23e+34
-1.23e+34
-1.23e+34
-1.23e+34
-1.23e+34
-1.23e+34
-1.23e+34
-1.23e+34
-1.23e+34
-1.23e+34
-1.23e+34
-1.23e+34
-1.23e+34
-1.23e+34
-1.23e+34
-1.23e+34
-1.23e+34
-1.23e+34
-1.23e+34
-1.23e+34
-1.23e+34
-1.23e+34
-1.23e+34
-1.23e+34
-1.23e+34
-1.23e+34
-1.23e+34
-1.23e+34
-1.23e+34
-1.23e+34
-1.23e+34
-1.23e+34
-1.23e+34
-1.23e+34
-1.23e+34
-1.23e+34
-1.23e+34
-1.23e+34
-1.23e+34
-1.23e+34
-1.23e+34
-1.23e+34
-1.23e+34
-1.23e+34
-1.23e+34
-1.23e+34
-1.23e+34
-1.23e+34
-1.23e+34
-1.23e+34
-1.23e+34
-1.23e+34
-1.23e+34
-1.23e+34
-1.23e+34
-1.23e+34
-1.23e+34
-1.23e+34
-1.23e+34
-1.23e+34
-1.23e+34
-1.23e+34
-1.23e+34
-1.23e+34
-1.23e+34
-1.23e+34
-1.23e+34
-1.23e+34
-1.23e+34
-1.23e+34
-1.23e+34
-1.23e+34
-1.23e+34
-1.23e+34
-1.23e+34
-1.23e+34
-1.23e+34
-1.23e+34
-1.23e+34
-1.23e+34
-1.23e+34
-1.23e+34
-1.23e+34
-1.23e+34
-1.23e+34
-1.23e+34
-1.23e+34
-1.23e+34
-1.23e+34
-1.23e+34
-1.23e+34
-1.23e+34
-1.23e+34
-1.23e+34
-1.23e+34
-1.23e+34
-1.23e+34
-1.23e+34
-1.23e+34
-1.23e+34
-1.23e+34
-1.23e+34
-1.23e+34
-1.23e+34
-1.23e+34
-1.23e+34
-1.23e+34
-1.23e+34
-1.23e+34
-1.23e+34
-1.23e+34
-1.23e+34
-1.23e+34
-1.23e+34
-1.23e+34
-1.23e+34
-1.23e+34
-1.23e+34
-1.23e+34
-1.23e+34
-1.23e+34
-1.23e+34
-1.23e+34
-1.23e+34
-1.23e+34
-1.23e+34
-1.23e+34
-1.23e+34
-1.23e+34
-1.23e+34
-1.23e+34
-1.23e+34
-1.23e+34
-1.23e+34
-1.23e+34
-1.23e+34
-1.23e+34
-1.23e+34
-1.23e+34
-1.23e+34
-1.23e+34
-1.23e+34
-1.23e+34
-1.23e+34
-1.23e+34
-1.23e+34
-1.23e+34
-1.23e+34
-1.23e+34
-1.23e+34
-1.23e+34
-1.23e+34
-1.23e+34
-1.23e+34
-1.23e+34
-1.23e+34
-1.23e+34
-1.23e+34
-1.23e+34
-1.23e+34
-1.23e+34
-1.23e+34
-1.23e+34
-1.23e+34
-1.23e+34
-1.23e+34
-1.23e+34
-1.23e+34
-1.23e+34
-1.23e+34
-1.23e+34
-1.23e+34
-1.23e+34
-1.23e+34
-1.23e+34
-1.23e+34
-1.23e+34
-1.23e+34
-1.23e+34
-1.23e+34
-1.23e+34
-1.23e+34
-1.23e+34
-1.23e+34
-1.23e+34
-1.23e+34
-1.23e+34
-1.23e+34
-1.23e+34
-1.23e+34
-1.23e+34
-1.23e+34
-1.23e+34
-1.23e+34
-1.23e+34
-1.23e+34
-1.23e+34
-1.23e+34
-1.23e+34
-1.23e+34
-1.23e+34
-1.23e+34
-1.23e+34
-1.23e+34
-1.23e+34
-1.23e+34
-1.23e+34
-1.23e+34
 0.439584
 0.439931
 0.440322
 0.44093
 0.441234
 0.441712
 0.442059
 0.442884
 0.442971
 0.443752
 0.444143
 0.444838
 0.445229
 0.44575
 0.446358
 0.446835
 0.447313
 0.447921
 0.448485
 0.449267
 0.449701
 0.450135
 0.4507
 0.451177
 0.451394
 0.451785
 0.45235
 0.45274
 0.453001
 0.453174
 0.453435
 0.453999
 0.454086
 0.454434
 0.454781
 0.455085
 0.455476
 0.455736
 0.456084
 0.456561
 0.457039
 0.457343
 0.457777
 0.458081
 0.458689
 0.458949
 0.45947
 0.459948
 0.460426
 0.46099
 0.461555
 0.462076
 0.462249
 0.462901
 0.463422
 0.463639
 0.464116
 0.46455
 0.46455
 0.465028
 0.465245
 0.465549
 0.465766
 0.465983
 0.466287
 0.466374
 0.466722
 0.466722
 0.466982
 0.467286
 0.467416
 0.467981
 0.468111
 0.468328
 0.468545
 0.468849
 0.469283
 0.469674
 0.470152
 0.470412
 0.470846
 0.471237
 0.471411
 0.471932
 0.472192
 0.47254
 0.473061
 0.473408
 0.473582
 0.473712
 0.474059
 0.474407
 0.474363
 0.474841
 0.474624
 0.474971
 0.475015
 0.475058
 0.475232
 0.475275
 0.475145
 0.475145
 0.475492
 0.47584
 0.475623
 0.476187
 0.476144
 0.476621
 0.476925
 0.476838
 0.477012
 0.477446
 0.477316
 0.477316
 0.47749
 0.477186
 0.477577
 0.477316
 0.477012
 0.476404
 0.475753
 0.475102
 0.474233
 0.473104
 0.47267
 0.471715
 0.471411
 0.471454
 0.471064
 0.47115
 0.471498
 0.471671
 0.471541
 0.472019
 0.472062
 0.472583
 0.473017
 0.473321
 0.473538
 0.474146
 0.47432
 0.474971
 0.475362
 0.47584
 0.476274
 0.476882
 0.477273
 0.477924
 0.478271
 0.478923
 0.479226
 0.479661
 0.480008
 0.480399
 0.480703
 0.481007
 0.481267
 0.481701
 0.481788
 0.482005
 0.482092
 0.481919
 0.482266
 0.482179
 0.482266
 0.482092
 0.482179
 0.482222
 0.482396
 0.482309
 0.482483
 0.482483
 0.48257
 0.482917
 0.482917
 0.482917
 0.483134
 0.483308
 0.483438
 0.483699
 0.483786
 0.483872
 0.484176
 0.484176
 0.484307
 0.484263
 0.484307
 0.484524
 0.484393
 0.484524
 0.48435
 0.48422
 0.484046
 0.483742
 0.483612
 0.483525
 0.483351
 0.482961
 0.48257
 0.482266
 0.481745
 0.481484
 0.481094
 0.480572
 0.480051
 0.479487
 0.479053
 0.478402
 0.477794
 0.476708
 0.475709
 0.47445
 0.472931
 0.471367
 0.470021
 0.468936
 0.468545
 0.468285
 0.468285
 0.468675
 0.469023
 0.469457
 0.469631
 0.469804
 0.469848
 0.469935
 0.469717
 0.469631
 0.469283
 0.469023
 0.468849
 0.468806
 0.468936
 0.468979
 0.468806
 0.468893
 0.468893
 0.468979
 0.468893
 0.468979
 0.469153
 0.469283
 0.46937
 0.469804
 0.470152
 0.470239
 0.47076
 0.47115
 0.471194
 0.471498
 0.471758
 0.471758
 0.471671
 0.471715
 0.471541
 0.471628
 0.471715
 0.471498
 0.471454
 0.470977
 0.470586
 0.470108
 0.469891
 0.46937
 0.468893
 0.468241
 0.46772
 0.467069
 0.466331
 0.465679
 0.464985
 0.464029
 0.463074
 0.462249
 0.461337
 0.460556
 0.459731
 0.458993
 0.457994
 0.457256
 0.456474
 0.455693
 0.454998
 0.454303
 0.453739
 0.453131
 0.45235
 0.451959
 0.451047
 0.450352
 0.449657
 0.448919
 0.448007
 0.447313
 0.446531
 0.445837
 0.444838
 0.44423
 0.443448
 0.442841
 0.44093
 0.440539
 0.439888
 0.440192
 0.438021
 0.438759
 0.432984
 0.438325
 0.434938
 0.436892
 0.435112
 0.434157
 0.433418
 0.432854
 0.433071
 0.431117
 0.429207
 0.425733
 0.422303
 0.414921
 0.396989
 0.39078
 0.384875
 0.376104
 0.363686
 0.346492
 0.33212
 0.320353
 0.304895
 0.285313
 0.269855
 0.254485
 0.23564
 0.221051
 0.210717
 0.201512
 0.195173
 0.191482
 0.189398
 0.187791
 0.186011
 0.185707
 0.191699
 0.194087
 0.195303
 0.194478
 0.193045
 0.191178
 0.188703
 0.185968
 0.183102
 0.180584
 0.177761
 0.174679
 0.172334
 0.170641
 0.169251
 0.168122
 0.167254
 0.166603
 0.166168
 0.166255
 0.166212
 0.166472
 0.166733
 0.16721
 0.167601
 0.168296
 0.169208
 0.170467
 0.172204
 0.174201
 0.176415
 0.1785
 0.18054
 0.182277
 0.184144
 0.186055
 0.187835
 0.189919
 0.19183
 0.193827
 0.195954
 0.198169
 0.20034
 0.202641
 0.205116
 0.207504
 0.209979
 0.212671
 0.215276
 0.218012
 0.220878
 0.223874
 0.226783
 0.229779
 0.232861
 0.235857
 0.238723
 0.241763
 0.244758
 0.247754
 0.250664
 0.253703
 0.256699
 0.259608
 0.262604
 0.265644
 0.268596
 0.271549
 0.274458
 0.27741
 0.280406
 0.283446
 0.286485
 0.289221
 0.291826
 0.294605
 0.296993
 0.29886
 0.300206
 0.301335
 0.302551
 0.304895
 0.306371
 0.306111
 0.306545
 0.310279
 0.315663
 0.319615
 0.323001
 0.325954
 0.327995
 0.329297
 0.331077
 0.331295
 0.333683
 0.338633
 0.34228
 0.344798
 0.346926
 0.348532
 0.350182
 0.351572
 0.353048
 0.354437
 0.355957
 0.357303
 0.358779
 0.359995
 0.361124
 0.362079
 0.362774
 0.363469
 0.363469
 0.363512
 0.363512
 0.363512
 0.363642
 0.364337
 0.365379
 0.366682
 0.368028
 0.369244
 0.369982
 0.370329
 0.370112
 0.369678
 0.36894
 0.368853
 0.368766
 0.369331
 0.370242
 0.370807
 0.371241
 0.371067
 0.370503
 0.369113
 0.367507
 0.365987
 0.365075
 0.364858
 0.365206
 0.365683
 0.365944
 0.366204
 0.366117
 0.365206
 0.363816
 0.361862
 0.359604
 0.357129
 0.354915
 0.352787
 0.35079
 0.348532
 0.345753
 0.344451
 0.343365
 0.341629
 0.341629
 0.342236
 0.338806
 0.336201
 0.336114
 0.336722
 0.336592
 0.33416
 0.329124
 0.322524
 0.314187
 0.306068
 0.299294
 0.292998
 0.288048
 0.281405
 0.281405
 0.285877
 0.295951
 0.309541
 0.319224
 0.325607
 0.327821
 0.327691
 0.325346
 0.321655
 0.314795
 0.305633
 0.295169
 0.29061
 0.297861
 0.302333
 0.301682
 0.29886
 0.294518
 0.289003
 0.281622
 0.272243
 0.26065
 0.244194
 0.220009
 0.185273
 0.153359
 0.138206
 0.127134
 0.109201
 0.0976516
 0.0940043
 0.0943082
 0.0948727
 0.096045
 0.102037
 0.106075
 0.106292
 0.107942
 0.110157
 0.110417
 0.103036
 0.0838874
 0.0662589
 0.0550566
 0.0480225
 0.0454173
 0.0436805
 0.0468502
 0.0587038
 0.0788073
 0.096045
 0.102297
 0.0972174
 0.0887939
 0.0788073
 0.0706877
 0.0671273
 0.0682128
 0.0744653
 0.0882294
 0.107421
 0.118927
 0.120187
 0.114933
 0.108072
 0.0991713
 0.0889241
 0.0793283
 0.0675615
 0.0566197
 0.0489778
 0.0493685
 0.0540579
 0.0576183
 0.0575315
 0.056446
 0.0506277
 0.0429858
 0.0330426
 0.0259652
 0.0245323
 0.0260086
 0.0304374
 0.0362123
 0.0430726
 0.0488475
 0.0551868
 0.0553605
 0.0499764
 0.0392083
 0.0290914
 0.0246191
 0.0253573
 0.0249665
 0.0235771
 0.020885
 0.0206245
 0.0212324
 0.0215797
 0.0210153
 0.0201903
 0.0188009
 0.0165864
 0.0137641
 0.0111589
 0.00903136
 0.00777218
 0.00560118
 0.00421174
 0.00295256
 0.0015197
 0.00052104
 8.684e-05
-0.00069472
-0.0004342
-0.00052104
 0.00034736
 0.00143286
 0.0028223
 0.00494988
 0.00785902
 0.0105945
 0.0131128
 0.0155009
 0.0205811
 0.027398
 0.0346057
 0.0394254
 0.0443752
 0.0479357
 0.0462857
 0.037732
 0.0317834
 0.0270072
 0.0246191
 0.0231429
 0.0221876
 0.0199298
 0.0157615
 0.0188443
 0.0199298
 0.0204942
 0.0206679
 0.0211455
 0.0216666
 0.022535
 0.0237942
 0.0262257
 0.0274414
 0.0288309
 0.0283533
 0.0277888
 0.0285269
 0.029048
 0.0316966
 0.0353873
 0.0393385
 0.0420306
 0.0432897
 0.0436805
 0.0460252
 0.0493251
 0.0498462
 0.0522777
 0.0533198
 0.0544487
 0.0550131
 0.0564894
 0.057792
 0.0579223
 0.0570973
 0.0570539
 0.0572276
 0.057271
 0.0572276
 0.056967
 0.0561421
 0.0544053
 0.0518435
 0.0467633
 0.0409885
 0.033911
 0.0263994
 0.0234468
 0.0262257
 0.0293953
 0.0315229
 0.03339
 0.0364728
 0.0424648
 0.049933
 0.0558815
 0.0583999
 0.060267
 0.0608314
 0.059442
 0.0548395
 0.047762
 0.0399898
 0.0452871
 0.0545789
 0.0616998
 0.0646524
 0.0661721
 0.0683431
 0.0686904
 0.0686036
 0.0695588
 0.0696457
 0.0700365
 0.071339
 0.0722943
 0.0719035
 0.0712088
 0.0707746
 0.0725982
 0.0739008
 0.0764626
 0.0826717
 0.0854505
 0.0905307
 0.0953503
 0.0984765
 0.100691
 0.108289
 0.115758
 0.120534
 0.128002
 0.128784
 0.134472
 0.136382
 0.141072
 0.141289
 0.144328
 0.15362
 0.155444
 0.155965
-1.23e+34
-1.23e+34
-1.23e+34
-1.23e+34
-1.23e+34
-1.23e+34
-1.23e+34
-1.23e+34
-1.23e+34
-1.23e+34
-1.23e+34
-1.23e+34
-1.23e+34
-1.23e+34
-1.23e+34
-1.23e+34
-1.23e+34
-1.23e+34
-1.23e+34
-1.23e+34
-1.23e+34
-1.23e+34
-1.23e+34
-1.23e+34
-1.23e+34
-1.23e+34
-1.23e+34
-1.23e+34
-1.23e+34
-1.23e+34
-1.23e+34
-1.23e+34
-1.23e+34
-1.23e+34
-1.23e+34
-1.23e+34
-1.23e+34
-1.23e+34
-1.23e+34
-1.23e+34
-1.23e+34
-1.23e+34
-1.23e+34
-1.23e+34
-1.23e+34
-1.23e+34
-1.23e+34